START OF LRA
   5.0                                                     DAZI
   0.0   90.0    5.0                                       ZEN1 / ZEN2 / DZEN
 355.0                                                     WAVELENGTH
   0.0  -18.71  -18.59  -18.20  -17.54  -16.61  -15.86  -17.18  -18.46  -19.45  -20.16  -20.58  -20.72  -20.56  -20.11  -19.37  -18.35  -17.04  -15.46  -14.00
   5.0  -18.71  -18.59  -18.20  -17.54  -16.61  -16.05  -17.71  -19.06  -20.13  -20.90  -21.39  -21.57  -21.47  -21.06  -20.36  -19.37  -18.09  -16.53  -15.08
  10.0  -18.71  -18.59  -18.20  -17.54  -16.61  -16.27  -18.31  -19.75  -20.90  -21.75  -22.30  -22.55  -22.50  -22.14  -21.49  -20.53  -19.28  -17.74  -16.31
  15.0  -18.71  -18.59  -18.20  -17.54  -16.61  -16.44  -18.78  -20.29  -21.50  -22.41  -23.01  -23.31  -23.30  -22.99  -22.37  -21.44  -20.22  -18.70  -17.28
  20.0  -18.71  -18.59  -18.20  -17.54  -16.61  -16.56  -19.13  -20.68  -21.93  -22.88  -23.53  -23.86  -23.89  -23.60  -23.01  -22.10  -20.89  -19.38  -17.97
  25.0  -18.71  -18.59  -18.20  -17.54  -16.61  -16.63  -19.33  -20.92  -22.20  -23.18  -23.84  -24.20  -24.24  -23.98  -23.39  -22.50  -21.30  -19.80  -18.39
  30.0  -18.71  -18.59  -18.20  -17.54  -16.61  -16.66  -19.41  -21.00  -22.29  -23.28  -23.96  -24.32  -24.37  -24.11  -23.53  -22.65  -21.45  -19.95  -18.54
  35.0  -18.71  -18.59  -18.20  -17.54  -16.61  -16.64  -19.35  -20.93  -22.22  -23.19  -23.86  -24.22  -24.27  -24.00  -23.42  -22.53  -21.33  -19.83  -18.42
  40.0  -18.71  -18.59  -18.20  -17.54  -16.61  -16.57  -19.15  -20.71  -21.97  -22.92  -23.57  -23.91  -23.93  -23.65  -23.06  -22.15  -20.95  -19.44  -18.02
  45.0  -18.71  -18.59  -18.20  -17.54  -16.61  -16.45  -18.82  -20.33  -21.55  -22.46  -23.07  -23.38  -23.37  -23.06  -22.44  -21.52  -20.30  -18.78  -17.36
  50.0  -18.71  -18.59  -18.20  -17.54  -16.61  -16.28  -18.36  -19.81  -20.96  -21.82  -22.38  -22.63  -22.59  -22.24  -21.59  -20.64  -19.39  -17.85  -16.42
  55.0  -18.71  -18.59  -18.20  -17.54  -16.61  -16.07  -17.77  -19.14  -20.21  -21.00  -21.49  -21.68  -21.58  -21.18  -20.49  -19.50  -18.22  -16.66  -15.22
  60.0  -18.71  -18.59  -18.20  -17.54  -16.61  -15.87  -17.22  -18.50  -19.50  -20.22  -20.64  -20.78  -20.62  -20.18  -19.44  -18.42  -17.12  -15.53  -14.07
  65.0  -18.71  -18.59  -18.20  -17.54  -16.61  -16.05  -17.71  -19.06  -20.13  -20.90  -21.39  -21.57  -21.47  -21.06  -20.36  -19.37  -18.09  -16.53  -15.08
  70.0  -18.71  -18.59  -18.20  -17.54  -16.61  -16.27  -18.31  -19.75  -20.90  -21.75  -22.30  -22.55  -22.50  -22.14  -21.49  -20.53  -19.28  -17.74  -16.31
  75.0  -18.71  -18.59  -18.20  -17.54  -16.61  -16.44  -18.78  -20.29  -21.50  -22.41  -23.01  -23.31  -23.30  -22.99  -22.37  -21.44  -20.22  -18.70  -17.28
  80.0  -18.71  -18.59  -18.20  -17.54  -16.61  -16.56  -19.13  -20.68  -21.93  -22.88  -23.53  -23.86  -23.89  -23.60  -23.01  -22.10  -20.89  -19.38  -17.97
  85.0  -18.71  -18.59  -18.20  -17.54  -16.61  -16.63  -19.33  -20.92  -22.20  -23.18  -23.84  -24.20  -24.24  -23.98  -23.39  -22.50  -21.30  -19.80  -18.39
  90.0  -18.71  -18.59  -18.20  -17.54  -16.61  -16.66  -19.41  -21.00  -22.29  -23.28  -23.96  -24.32  -24.37  -24.11  -23.53  -22.65  -21.45  -19.95  -18.54
  95.0  -18.71  -18.59  -18.20  -17.54  -16.61  -16.64  -19.35  -20.93  -22.22  -23.19  -23.86  -24.22  -24.27  -24.00  -23.42  -22.53  -21.33  -19.83  -18.42
 100.0  -18.71  -18.59  -18.20  -17.54  -16.61  -16.57  -19.15  -20.71  -21.97  -22.92  -23.57  -23.91  -23.93  -23.65  -23.06  -22.15  -20.95  -19.44  -18.02
 105.0  -18.71  -18.59  -18.20  -17.54  -16.61  -16.45  -18.82  -20.33  -21.55  -22.46  -23.07  -23.38  -23.37  -23.06  -22.44  -21.52  -20.30  -18.78  -17.36
 110.0  -18.71  -18.59  -18.20  -17.54  -16.61  -16.28  -18.36  -19.81  -20.96  -21.82  -22.38  -22.63  -22.59  -22.24  -21.59  -20.64  -19.39  -17.85  -16.42
 115.0  -18.71  -18.59  -18.20  -17.54  -16.61  -16.07  -17.77  -19.14  -20.21  -21.00  -21.49  -21.68  -21.58  -21.18  -20.49  -19.50  -18.22  -16.66  -15.22
 120.0  -18.71  -18.59  -18.20  -17.54  -16.61  -15.87  -17.22  -18.50  -19.50  -20.22  -20.64  -20.78  -20.62  -20.18  -19.44  -18.42  -17.12  -15.53  -14.07
 125.0  -18.71  -18.59  -18.20  -17.54  -16.61  -16.05  -17.71  -19.06  -20.13  -20.90  -21.39  -21.57  -21.47  -21.06  -20.36  -19.37  -18.09  -16.53  -15.08
 130.0  -18.71  -18.59  -18.20  -17.54  -16.61  -16.27  -18.31  -19.75  -20.90  -21.75  -22.30  -22.55  -22.50  -22.14  -21.49  -20.53  -19.28  -17.74  -16.31
 135.0  -18.71  -18.59  -18.20  -17.54  -16.61  -16.44  -18.78  -20.29  -21.50  -22.41  -23.01  -23.31  -23.30  -22.99  -22.37  -21.44  -20.22  -18.70  -17.28
 140.0  -18.71  -18.59  -18.20  -17.54  -16.61  -16.56  -19.13  -20.68  -21.93  -22.88  -23.53  -23.86  -23.89  -23.60  -23.01  -22.10  -20.89  -19.38  -17.97
 145.0  -18.71  -18.59  -18.20  -17.54  -16.61  -16.63  -19.33  -20.92  -22.20  -23.18  -23.84  -24.20  -24.24  -23.98  -23.39  -22.50  -21.30  -19.80  -18.39
 150.0  -18.71  -18.59  -18.20  -17.54  -16.61  -16.66  -19.41  -21.00  -22.29  -23.28  -23.96  -24.32  -24.37  -24.11  -23.53  -22.65  -21.45  -19.95  -18.54
 155.0  -18.71  -18.59  -18.20  -17.54  -16.61  -16.64  -19.35  -20.93  -22.22  -23.19  -23.86  -24.22  -24.27  -24.00  -23.42  -22.53  -21.33  -19.83  -18.42
 160.0  -18.71  -18.59  -18.20  -17.54  -16.61  -16.57  -19.15  -20.71  -21.97  -22.92  -23.57  -23.91  -23.93  -23.65  -23.06  -22.15  -20.95  -19.44  -18.02
 165.0  -18.71  -18.59  -18.20  -17.54  -16.61  -16.45  -18.82  -20.33  -21.55  -22.46  -23.07  -23.38  -23.37  -23.06  -22.44  -21.52  -20.30  -18.78  -17.36
 170.0  -18.71  -18.59  -18.20  -17.54  -16.61  -16.28  -18.36  -19.81  -20.96  -21.82  -22.38  -22.63  -22.59  -22.24  -21.59  -20.64  -19.39  -17.85  -16.42
 175.0  -18.71  -18.59  -18.20  -17.54  -16.61  -16.07  -17.77  -19.14  -20.21  -21.00  -21.49  -21.68  -21.58  -21.18  -20.49  -19.50  -18.22  -16.66  -15.22
 180.0  -18.71  -18.59  -18.20  -17.54  -16.61  -15.87  -17.22  -18.50  -19.50  -20.22  -20.64  -20.78  -20.62  -20.18  -19.44  -18.42  -17.12  -15.53  -14.07
 185.0  -18.71  -18.59  -18.20  -17.54  -16.61  -16.05  -17.71  -19.06  -20.13  -20.90  -21.39  -21.57  -21.47  -21.06  -20.36  -19.37  -18.09  -16.53  -15.08
 190.0  -18.71  -18.59  -18.20  -17.54  -16.61  -16.27  -18.31  -19.75  -20.90  -21.75  -22.30  -22.55  -22.50  -22.14  -21.49  -20.53  -19.28  -17.74  -16.31
 195.0  -18.71  -18.59  -18.20  -17.54  -16.61  -16.44  -18.78  -20.29  -21.50  -22.41  -23.01  -23.31  -23.30  -22.99  -22.37  -21.44  -20.22  -18.70  -17.28
 200.0  -18.71  -18.59  -18.20  -17.54  -16.61  -16.56  -19.13  -20.68  -21.93  -22.88  -23.53  -23.86  -23.89  -23.60  -23.01  -22.10  -20.89  -19.38  -17.97
 205.0  -18.71  -18.59  -18.20  -17.54  -16.61  -16.63  -19.33  -20.92  -22.20  -23.18  -23.84  -24.20  -24.24  -23.98  -23.39  -22.50  -21.30  -19.80  -18.39
 210.0  -18.71  -18.59  -18.20  -17.54  -16.61  -16.66  -19.41  -21.00  -22.29  -23.28  -23.96  -24.32  -24.37  -24.11  -23.53  -22.65  -21.45  -19.95  -18.54
 215.0  -18.71  -18.59  -18.20  -17.54  -16.61  -16.64  -19.35  -20.93  -22.22  -23.19  -23.86  -24.22  -24.27  -24.00  -23.42  -22.53  -21.33  -19.83  -18.42
 220.0  -18.71  -18.59  -18.20  -17.54  -16.61  -16.57  -19.15  -20.71  -21.97  -22.92  -23.57  -23.91  -23.93  -23.65  -23.06  -22.15  -20.95  -19.44  -18.02
 225.0  -18.71  -18.59  -18.20  -17.54  -16.61  -16.45  -18.82  -20.33  -21.55  -22.46  -23.07  -23.38  -23.37  -23.06  -22.44  -21.52  -20.30  -18.78  -17.36
 230.0  -18.71  -18.59  -18.20  -17.54  -16.61  -16.28  -18.36  -19.81  -20.96  -21.82  -22.38  -22.63  -22.59  -22.24  -21.59  -20.64  -19.39  -17.85  -16.42
 235.0  -18.71  -18.59  -18.20  -17.54  -16.61  -16.07  -17.77  -19.14  -20.21  -21.00  -21.49  -21.68  -21.58  -21.18  -20.49  -19.50  -18.22  -16.66  -15.22
 240.0  -18.71  -18.59  -18.20  -17.54  -16.61  -15.87  -17.22  -18.50  -19.50  -20.22  -20.64  -20.78  -20.62  -20.18  -19.44  -18.42  -17.12  -15.53  -14.07
 245.0  -18.71  -18.59  -18.20  -17.54  -16.61  -16.05  -17.71  -19.06  -20.13  -20.90  -21.39  -21.57  -21.47  -21.06  -20.36  -19.37  -18.09  -16.53  -15.08
 250.0  -18.71  -18.59  -18.20  -17.54  -16.61  -16.27  -18.31  -19.75  -20.90  -21.75  -22.30  -22.55  -22.50  -22.14  -21.49  -20.53  -19.28  -17.74  -16.31
 255.0  -18.71  -18.59  -18.20  -17.54  -16.61  -16.44  -18.78  -20.29  -21.50  -22.41  -23.01  -23.31  -23.30  -22.99  -22.37  -21.44  -20.22  -18.70  -17.28
 260.0  -18.71  -18.59  -18.20  -17.54  -16.61  -16.56  -19.13  -20.68  -21.93  -22.88  -23.53  -23.86  -23.89  -23.60  -23.01  -22.10  -20.89  -19.38  -17.97
 265.0  -18.71  -18.59  -18.20  -17.54  -16.61  -16.63  -19.33  -20.92  -22.20  -23.18  -23.84  -24.20  -24.24  -23.98  -23.39  -22.50  -21.30  -19.80  -18.39
 270.0  -18.71  -18.59  -18.20  -17.54  -16.61  -16.66  -19.41  -21.00  -22.29  -23.28  -23.96  -24.32  -24.37  -24.11  -23.53  -22.65  -21.45  -19.95  -18.54
 275.0  -18.71  -18.59  -18.20  -17.54  -16.61  -16.64  -19.35  -20.93  -22.22  -23.19  -23.86  -24.22  -24.27  -24.00  -23.42  -22.53  -21.33  -19.83  -18.42
 280.0  -18.71  -18.59  -18.20  -17.54  -16.61  -16.57  -19.15  -20.71  -21.97  -22.92  -23.57  -23.91  -23.93  -23.65  -23.06  -22.15  -20.95  -19.44  -18.02
 285.0  -18.71  -18.59  -18.20  -17.54  -16.61  -16.45  -18.82  -20.33  -21.55  -22.46  -23.07  -23.38  -23.37  -23.06  -22.44  -21.52  -20.30  -18.78  -17.36
 290.0  -18.71  -18.59  -18.20  -17.54  -16.61  -16.28  -18.36  -19.81  -20.96  -21.82  -22.38  -22.63  -22.59  -22.24  -21.59  -20.64  -19.39  -17.85  -16.42
 295.0  -18.71  -18.59  -18.20  -17.54  -16.61  -16.07  -17.77  -19.14  -20.21  -21.00  -21.49  -21.68  -21.58  -21.18  -20.49  -19.50  -18.22  -16.66  -15.22
 300.0  -18.71  -18.59  -18.20  -17.54  -16.61  -15.87  -17.22  -18.50  -19.50  -20.22  -20.64  -20.78  -20.62  -20.18  -19.44  -18.42  -17.12  -15.53  -14.07
 305.0  -18.71  -18.59  -18.20  -17.54  -16.61  -16.05  -17.71  -19.06  -20.13  -20.90  -21.39  -21.57  -21.47  -21.06  -20.36  -19.37  -18.09  -16.53  -15.08
 310.0  -18.71  -18.59  -18.20  -17.54  -16.61  -16.27  -18.31  -19.75  -20.90  -21.75  -22.30  -22.55  -22.50  -22.14  -21.49  -20.53  -19.28  -17.74  -16.31
 315.0  -18.71  -18.59  -18.20  -17.54  -16.61  -16.44  -18.78  -20.29  -21.50  -22.41  -23.01  -23.31  -23.30  -22.99  -22.37  -21.44  -20.22  -18.70  -17.28
 320.0  -18.71  -18.59  -18.20  -17.54  -16.61  -16.56  -19.13  -20.68  -21.93  -22.88  -23.53  -23.86  -23.89  -23.60  -23.01  -22.10  -20.89  -19.38  -17.97
 325.0  -18.71  -18.59  -18.20  -17.54  -16.61  -16.63  -19.33  -20.92  -22.20  -23.18  -23.84  -24.20  -24.24  -23.98  -23.39  -22.50  -21.30  -19.80  -18.39
 330.0  -18.71  -18.59  -18.20  -17.54  -16.61  -16.66  -19.41  -21.00  -22.29  -23.28  -23.96  -24.32  -24.37  -24.11  -23.53  -22.65  -21.45  -19.95  -18.54
 335.0  -18.71  -18.59  -18.20  -17.54  -16.61  -16.64  -19.35  -20.93  -22.22  -23.19  -23.86  -24.22  -24.27  -24.00  -23.42  -22.53  -21.33  -19.83  -18.42
 340.0  -18.71  -18.59  -18.20  -17.54  -16.61  -16.57  -19.15  -20.71  -21.97  -22.92  -23.57  -23.91  -23.93  -23.65  -23.06  -22.15  -20.95  -19.44  -18.02
 345.0  -18.71  -18.59  -18.20  -17.54  -16.61  -16.45  -18.82  -20.33  -21.55  -22.46  -23.07  -23.38  -23.37  -23.06  -22.44  -21.52  -20.30  -18.78  -17.36
 350.0  -18.71  -18.59  -18.20  -17.54  -16.61  -16.28  -18.36  -19.81  -20.96  -21.82  -22.38  -22.63  -22.59  -22.24  -21.59  -20.64  -19.39  -17.85  -16.42
 355.0  -18.71  -18.59  -18.20  -17.54  -16.61  -16.07  -17.77  -19.14  -20.21  -21.00  -21.49  -21.68  -21.58  -21.18  -20.49  -19.50  -18.22  -16.66  -15.22
 360.0  -18.71  -18.59  -18.20  -17.54  -16.61  -15.87  -17.22  -18.50  -19.50  -20.21  -20.64  -20.78  -20.62  -20.18  -19.44  -18.42  -17.11  -15.53  -14.07
END OF LRA